 Venus temperature profile from a smoothed fit to N^2 calculated 
 from Pioneer Venus probe data (Seiff, 1980) by P. Gierasch.
 Values for p > 9.2160e+04 have been extended by T. Dowling.
 .
 .
#  p[mbar]     T[K]     dT[K]
104
  0.5663     146.461     0.
  0.6384     147.501     0.
  0.7198     148.549     0.
  0.8116     149.604     0.
  0.9151     150.666     0.
   1.032     151.736     0.
   1.163     152.814     0.
   1.312     153.899     0.
   1.479     154.992     0.
   1.667     156.093     0.
   1.880     157.201     0.
   2.120     158.318     0.
   2.390     159.442     0.
   2.695     160.575     0.
   3.038     161.715     0.
   3.426     162.862     0.
   3.862     164.016     0.
   4.355     165.171     0.
   4.910     166.321     0.
   5.536     167.458     0.
   6.242     168.576     0.
   7.038     169.674     0.
   7.935     170.749     0.
   8.947     171.801     0.
   10.09     172.830     0.
   11.37     173.838     0.
   12.82     174.823     0.
   14.46     175.787     0.
   16.30     176.734     0.
   18.38     177.665     0.
   20.72     178.586     0.
   23.37     179.505     0.
   26.35     180.430     0.
   29.70     181.376     0.
   33.49     182.359     0.
   37.76     183.398     0.
   42.58     184.518     0.
   48.00     185.740     0.
   54.12     187.089     0.
   61.02     188.585     0.
   68.81     190.249     0.
   77.58     192.099     0.
   87.47     194.150     0.
   98.62     196.416     0.
   111.2     198.911     0.
   125.4     201.648     0.
   141.4     204.645     0.
   159.4     207.921     0.
   179.7     211.493     0.
   202.6     215.380     0.
   228.4     219.597     0.
   257.6     224.157     0.
   290.4     229.071     0.
   327.4     234.341     0.
   369.2     239.960     0.
   416.2     245.912     0.
   469.3     252.170     0.
   529.2     258.704     0.
   596.6     265.485     0.
   672.7     272.484     0.
   758.5     279.668     0.
   855.2     287.000     0.
   964.2     294.430     0.
   1087.     301.889     0.
   1226.     309.300     0.
   1382.     316.584     0.
   1558.     323.687     0.
   1757.     330.595     0.
   1981.     337.346     0.
   2233.     344.026     0.
   2518.     350.745     0.
   2839.     357.612     0.
   3201.     364.713     0.
   3609.     372.115     0.
   4070.     379.867     0.
   4588.     388.015     0.
   5173.     396.596     0.
   5833.     405.651     0.
   6577.     415.215     0.
   7415.     425.320     0.
   8361.     435.984     0.
   9427.     447.198     0.
  1.0628e+04 458.924     0.
  1.1983e+04 471.103     0.
  1.3511e+04 483.686     0.
  1.5234e+04 496.636     0.
  1.7176e+04 509.931     0.
  1.9366e+04 523.537     0.
  2.1835e+04 537.394     0.
  2.4619e+04 551.402     0.
  2.7758e+04 565.470     0.
  3.1297e+04 579.596     0.
  3.5287e+04 593.940     0.
  3.9786e+04 608.772     0.
  4.4859e+04 624.312     0.
  5.0578e+04 640.615     0.
  5.7027e+04 657.600     0.
  6.4298e+04 675.163     0.
  7.2496e+04 693.243     0.
  8.1739e+04 711.821     0.
  9.2160e+04 730.900     0.
  1.0391e+05 749.979     0.
  1.1716e+05 769.058     0.
  1.3210e+05 788.137     0.
