 Galileo Probe Jupiter data from 
 Seiff et al (1997, Science 276, 102-104) 
 "Thermal Structure of Jupiter's Upper 
 Atmosphere Derived from the Galileo Probe."

 384
 z[km]    p[hPa]     T[K]   rho[kg/m3]
 1027.7   9.5110e-07 899.80 2.5390e-11
 1027.2   9.5420e-07 899.60 2.5480e-11
 1022.8   9.7950e-07 897.20 2.6230e-11
 1017.4   1.0120e-06 893.20 2.7230e-11
 1012.0   1.0460e-06 888.60 2.8290e-11
 1006.6   1.0810e-06 884.40 2.9380e-11
 1001.2   1.1170e-06 879.80 3.0530e-11
  995.87  1.1550e-06 875.60 3.1720e-11
  990.50  1.1940e-06 871.60 3.2950e-11
  985.14  1.2350e-06 867.60 3.4230e-11
  979.79  1.2770e-06 864.20 3.5550e-11
  974.45  1.3200e-06 861.40 3.6890e-11
  969.12  1.3660e-06 858.80 3.8270e-11
  963.80  1.4120e-06 856.80 3.9680e-11
  958.49  1.4610e-06 855.50 4.1110e-11
  953.18  1.5110e-06 854.30 4.2590e-11
  947.89  1.5630e-06 853.60 4.4090e-11
  942.60  1.6160e-06 853.50 4.5620e-11
  937.33  1.6720e-06 853.60 4.7180e-11
  932.06  1.7290e-06 854.30 4.8760e-11
  926.80  1.7880e-06 855.30 5.0370e-11
  921.55  1.8480e-06 856.40 5.2020e-11
  916.31  1.9110e-06 857.70 5.3710e-11
  911.08  1.9750e-06 859.40 5.5420e-11
  905.86  2.0420e-06 861.40 5.7170e-11
  900.64  2.1100e-06 863.30 5.8960e-11
  895.44  2.1810e-06 865.30 6.0800e-11
  890.24  2.2530e-06 867.50 6.2680e-11
  885.06  2.3280e-06 869.70 6.4600e-11
  879.88  2.4050e-06 871.80 6.6580e-11
  874.72  2.4840e-06 873.90 6.8610e-11
  869.56  2.5650e-06 875.80 7.0720e-11
  864.41  2.6490e-06 877.60 7.2890e-11
  859.27  2.7350e-06 879.40 7.5130e-11
  854.14  2.8240e-06 880.70 7.7460e-11
  849.02  2.9150e-06 881.90 7.9870e-11
  843.90  3.0090e-06 882.80 8.2370e-11
  838.80  3.1060e-06 883.30 8.4980e-11
  833.71  3.2050e-06 883.60 8.7700e-11
  828.62  3.3080e-06 883.50 9.0540e-11
  823.55  3.4140e-06 882.90 9.3520e-11
  818.48  3.5230e-06 882.00 9.6630e-11
  813.42  3.6360e-06 880.60 9.9890e-11
  808.37  3.7520e-06 878.80 1.0330e-10
  803.34  3.8720e-06 876.50 1.0690e-10
  798.30  3.9960e-06 873.80 1.1070e-10
  793.28  4.1250e-06 870.60 1.1470e-10
  788.27  4.2580e-06 866.50 1.1900e-10
  783.27  4.3950e-06 862.20 1.2350e-10
  778.28  4.5380e-06 857.60 1.2820e-10
  773.29  4.6860e-06 852.80 1.3310e-10
  768.32  4.8390e-06 847.10 1.3840e-10
  763.35  4.9980e-06 841.40 1.4400e-10
  758.40  5.1640e-06 835.20 1.4990e-10
  753.45  5.3350e-06 829.30 1.5600e-10
  748.51  5.5140e-06 822.60 1.6260e-10
  743.58  5.7000e-06 815.70 1.6960e-10
  738.66  5.8940e-06 808.30 1.7700e-10
  733.75  6.0960e-06 801.00 1.8480e-10
  728.85  6.3060e-06 794.00 1.9290e-10
  723.96  6.5260e-06 786.30 2.0160e-10
  719.08  6.7540e-06 780.80 2.1020e-10
  714.20  6.9930e-06 772.20 2.2010e-10
  709.34  7.2420e-06 763.30 2.3080e-10
  704.48  7.5030e-06 753.70 2.4220e-10
  699.64  7.7770e-06 744.50 2.5420e-10
  694.80  8.0640e-06 735.70 2.6680e-10
  689.97  8.3640e-06 727.30 2.8000e-10
  685.16  8.6790e-06 719.20 2.9390e-10
  680.35  9.0090e-06 711.60 3.0850e-10
  675.55  9.3540e-06 705.40 3.2320e-10
  670.76  9.7150e-06 699.40 3.3860e-10
  665.98  1.0090e-05 694.40 3.5351e-10
  661.20  1.0490e-05 689.80 3.7080e-10
  656.44  1.0900e-05 686.10 3.8760e-10
  651.69  1.1330e-05 683.10 4.0480e-10
  646.94  1.1770e-05 680.50 4.2250e-10
  642.21  1.2240e-05 678.30 4.4070e-10
  637.48  1.2730e-05 676.60 4.5950e-10
  632.77  1.3230e-05 675.40 4.7870e-10
  628.06  1.3750e-05 674.50 4.9850e-10
  623.36  1.4300e-05 673.90 5.1900e-10
  618.67  1.4870e-05 673.60 5.4010e-10
  613.99  1.5450e-05 673.30 5.6200e-10
  609.32  1.6070e-05 673.20 5.8470e-10
  604.66  1.6700e-05 673.00 6.0830e-10
  600.01  1.7360e-05 672.80 6.3280e-10
  595.37  1.8040e-05 672.60 6.5830e-10
  590.74  1.8750e-05 672.10 6.8510e-10
  586.11  1.9490e-05 671.70 7.1290e-10
  581.50  2.0260e-05 670.80 7.4230e-10
  576.89  2.1060e-05 669.80 7.7310e-10
  572.30  2.1880e-05 668.50 8.0550e-10
  567.71  2.2750e-05 666.80 8.3990e-10
  563.13  2.3640e-05 664.80 8.7610e-10
  558.57  2.4580e-05 662.60 9.1430e-10
  554.01  2.5550e-05 660.90 9.5340e-10
  549.46  2.6570e-05 657.10 9.9780e-10
  544.92  2.7630e-05 652.40 1.0460e-09
  540.39  2.8740e-05 646.60 1.0990e-09
  535.87  2.9900e-05 639.30 1.1580e-09
  531.35  3.1130e-05 630.30 1.2240e-09
  526.85  3.2430e-05 618.30 1.3010e-09
  522.36  3.3810e-05 605.50 1.3870e-09
  517.87  3.5290e-05 591.40 1.4830e-09
  513.40  3.6860e-05 576.70 1.5900e-09
  508.93  3.8540e-05 565.50 1.6970e-09
  504.48  4.0320e-05 558.10 1.8010e-09
  500.03  4.2210e-05 550.90 1.9120e-09
  495.60  4.4220e-05 544.00 2.0300e-09
  491.17  4.6340e-05 539.50 2.1480e-09
  486.75  4.8570e-05 536.60 2.2680e-09
  482.34  5.0920e-05 537.00 2.3800e-09
  477.94  5.3370e-05 539.90 2.4850e-09
  473.55  5.5930e-05 540.70 2.6040e-09
  469.17  5.8610e-05 541.20 2.7310e-09
  464.80  6.1420e-05 541.40 2.8650e-09
  460.43  6.4350e-05 540.80 3.0110e-09
  456.08  6.7440e-05 537.20 3.1820e-09
  451.73  7.0710e-05 531.20 3.3780e-09
  447.40  7.4180e-05 522.70 3.6080e-09
  443.08  7.7890e-05 508.60 3.8990e-09
  438.76  8.1950e-05 485.10 4.3120e-09
  434.45  8.6460e-05 457.00 4.8430e-09
  430.16  9.1550e-05 429.00 5.4770e-09
  425.87  9.7260e-05 410.00 6.1050e-09
  421.59  0.00010350 401.10 6.6590e-09
  417.32  0.00011030 395.60 7.2130e-09
  413.06  0.00011770 386.60 7.8980e-09
  408.81  0.00012580 379.10 8.6280e-09
  404.57  0.00013450 378.20 9.2830e-09
  400.34  0.00014380 383.00 9.8330e-09
  396.12  0.00015380 369.00 1.0960e-08
  391.90  0.00016510 349.50 1.2470e-08
  387.70  0.00017810 328.00 1.4380e-08
  383.51  0.00019310 306.40 1.6740e-08
  379.32  0.00021030 292.30 1.9190e-08
  375.15  0.00023010 279.40 2.2040e-08
  370.98  0.00025260 271.00 2.5030e-08
  366.83  0.00027810 261.30 2.8680e-08
  362.68  0.00030800 244.40 3.4110e-08
  358.54  0.00034330 233.50 3.9950e-08
  354.42  0.00038310 233.70 4.4710e-08
  350.30  0.00043060 211.70 5.5730e-08
  346.19  0.00048920 198.80 6.7590e-08
  342.09  0.00055620 203.70 7.5190e-08
  338.00  0.00063240 200.50 8.7050e-08
  333.92  0.00072110 196.10 1.0170e-07
  329.85  0.00082330 196.20 1.1630e-07
  325.78  0.00093870 199.20 1.3100e-07
  321.73  0.0010690  199.40 1.4930e-07
  317.69  0.0012200  196.50 1.7330e-07
  313.65  0.0013890  202.80 1.9160e-07
  309.63  0.0015760  208.00 2.1250e-07
  305.62  0.0017830  211.80 2.3610e-07
  301.61  0.0020190  201.10 2.8180e-07
  297.62  0.0023040  188.10 3.4400e-07
  293.63  0.0026580  173.30 4.3130e-07
  289.65  0.0031020  161.50 5.4030e-07
  285.69  0.0036560  154.20 6.6750e-07
  281.73  0.0043120  156.80 7.7460e-07
  277.78  0.0050850  155.90 9.1940e-07
  273.85  0.0059680  162.80 1.0340e-06
  269.92  0.0069740  163.20 1.2060e-06
  266.00  0.0081940  154.60 1.4970e-06
  262.09  0.0096830  151.80 1.8020e-06
  258.19  0.011440   153.90 2.0990e-06
  254.30  0.013460   157.30 2.4180e-06
  250.43  0.015760   163.20 2.7270e-06
  246.56  0.018380   163.40 3.1780e-06
  242.70  0.021480   159.10 3.8150e-06
  238.85  0.025260   153.50 4.6480e-06
  235.01  0.029610   159.90 5.2320e-06
  231.19  0.034670   158.20 6.1930e-06
  227.37  0.040510   161.60 7.0850e-06
  223.57  0.047160   163.60 8.1470e-06
  219.77  0.055030   159.40 9.7610e-06
  215.99  0.064110   162.90 1.1120e-05
  212.22  0.074690   160.60 1.3150e-05
  208.46  0.086940   162.30 1.5150e-05
  204.71  0.10110    161.40 1.7720e-05
  200.98  0.11770    160.10 2.0780e-05
  197.26  0.13750    155.20 2.5040e-05
  193.55  0.16010    162.20 2.7920e-05
  189.87  0.18540    165.10 3.1760e-05
  186.19  0.21510    161.00 3.7790e-05
  182.53  0.24850    167.40 4.1970e-05
  178.89  0.28770    159.50 5.1000e-05
  175.27  0.33370    160.70 5.8730e-05
  171.67  0.38580    164.40 6.6350e-05
  168.10  0.44430    167.30 7.5110e-05
  164.54  0.50950    171.80 8.3830e-05
  161.01  0.58320    170.50 9.6740e-05
  157.51  0.66700    171.00 0.00011030
  154.03  0.76190    170.90 0.00012610
  150.59  0.86920    170.10 0.00014450
  147.18  0.99470    163.10 0.00017240
  143.81  1.1370     166.90 0.00019250
  140.48  1.2960     165.10 0.00022190
  137.20  1.4800     159.90 0.00026170
  133.97  1.6900     159.80 0.00029900
  130.79  1.9230     161.70 0.00033630
  127.67  2.1850     158.20 0.00039040
  124.62  2.4810     156.30 0.00044880
  121.64  2.8150     154.00 0.00051700
  118.74  3.1850     153.90 0.00058500
  115.92  3.5930     152.60 0.00066570
  113.20  4.0360     154.80 0.00073710
  110.57  4.5080     156.60 0.00081380
  108.04  5.0110     157.30 0.00090060
  105.61  5.5460     156.40 0.0010030
  103.28  6.1140     157.20 0.0011000
  101.06  6.7020     159.60 0.0011870
   98.938 7.3080     161.60 0.0012790
   96.922 7.9300     162.30 0.0013810
   95.004 8.5660     163.10 0.0014850
   93.183 9.2190     162.40 0.0016050
   91.456 9.8890     160.50 0.0017420
   89.821 10.570     160.40 0.0018640
   88.272 11.270     159.70 0.0019950
   86.807 11.970     158.30 0.0021370
   85.420 12.680     156.50 0.0022900
   84.109 13.400     155.30 0.0024390
   82.869 14.120     155.30 0.0025720
   81.696 14.850     150.60 0.0027890
   80.586 15.590     149.60 0.0029470
   79.535 16.330     146.40 0.0031550
   78.541 17.080     144.50 0.0033420
   77.599 17.830     142.50 0.0035400
   76.706 18.580     141.90 0.0037050
   75.858 19.340     138.70 0.0039420
   75.054 20.100     135.70 0.0041890
   74.289 20.860     134.50 0.0043830
   73.561 21.610     135.80 0.0045000
   72.868 22.350     135.00 0.0046810
   72.205 23.080     135.50 0.0048170
   71.571 23.800     134.90 0.0049890
   70.963 24.510     135.90 0.0051000
   70.379 25.210     137.30 0.0051920
   69.816 25.900     136.70 0.0053590
   69.274 26.580     137.80 0.0054560
   68.750 27.250     137.10 0.0056220
   68.243 27.930     134.70 0.0058630
   67.752 28.610     134.60 0.0060120
   67.276 29.280     133.10 0.0062210
   66.814 29.960     131.90 0.0064230
   66.364 30.640     131.70 0.0065780
   65.927 31.320     129.60 0.0068350
   65.500 32.010     128.80 0.0070290
   65.084 32.690     129.00 0.0071690
   64.678 33.380     129.80 0.0072680
   64.281 34.050     129.20 0.0074510
   63.892 34.730     129.70 0.0075700
   63.511 35.410     129.70 0.0077220
   63.136 36.090     130.50 0.0078180
   62.768 36.760     132.20 0.0078630
   62.406 37.430     131.10 0.0080730
   62.049 38.100     131.10 0.0082200
   61.698 38.780     129.70 0.0084540
   61.352 39.470     129.80 0.0085990
   61.010 40.160     128.30 0.0088480
   60.672 40.860     128.10 0.0090170
   60.339 41.570     127.10 0.0092500 
   60.010 42.280     126.30 0.0094680
   59.684 43.010     124.70 0.0097530
   59.362 43.750     124.50 0.0099390
   59.044 44.490     123.50 0.010190
   58.728 45.260     119.20 0.010730
   58.416 46.050     118.50 0.010990
   58.000 46.840     119.20 0.011110
   57.800 47.640     119.20 0.011300
   57.496 48.450     118.30 0.011580
   57.194 49.270     116.20 0.011990
   56.895 50.120     115.70 0.012250
   56.597 50.970     115.30 0.012490
   56.302 51.830     115.00 0.012740
   56.009 52.720     113.60 0.013120
   55.717 53.630     110.90 0.013670
   55.427 54.550     111.20 0.013870
   55.138 55.500     110.40 0.014210
   54.851 56.450     111.40 0.014320
   54.565 57.410     111.30 0.014590
   54.280 58.370     113.10 0.014590
   53.995 59.350     111.90 0.014990
   53.711 60.360     109.20 0.015640
   53.427 61.410     108.20 0.016050
   53.144 62.450     112.80 0.015650
   52.861 63.490     112.60 0.015940
   52.578 64.550     112.00 0.016290
   52.295 65.620     113.40 0.016370
   52.012 66.710     112.50 0.016760
   51.728 67.830     112.70 0.017010
   51.443 68.960     113.30 0.017210
   51.158 70.120     111.40 0.017790
   50.872 71.300     113.00 0.017840
   50.585 72.520     110.70 0.018530
   50.298 73.750     112.30 0.018570
   50.010 75.010     112.40 0.018860
   49.720 76.280     112.30 0.019210
   49.430 77.600     110.70 0.019830
   49.139 78.950     111.10 0.020090
   48.846 80.340     110.20 0.020610
   48.553 81.750     110.10 0.020990
   48.258 83.200     110.00 0.021380
   47.962 84.700     108.50 0.022070
   47.665 86.230     109.40 0.022290
   47.367 87.770     113.30 0.021910
   47.067 89.270     118.10 0.021370
   46.765 90.790     117.30 0.021880
   46.460 92.340     119.20 0.021900
   46.153 93.900     122.20 0.021740
   45.843 95.500     119.00 0.022700
   45.531 97.140     121.70 0.022570
   45.217 98.840     117.40 0.023810
   44.900 100.60     118.60 0.023980
   44.582 102.40     119.20 0.024280
   44.261 104.20     119.50 0.024650
   43.938 106.00     122.40 0.024500
   43.613 107.90     119.10 0.025640
   43.286 109.90     117.60 0.026430
   42.957 111.90     121.90 0.025970
   42.627 114.00     116.90 0.027560
   42.295 116.10     115.90 0.028340
   41.961 118.30     117.30 0.028520
   41.627 120.60     117.60 0.028990
   41.291 122.90     117.50 0.029560
   40.954 125.20     117.10 0.030230
   40.616 127.60     116.90 0.030870
   40.277 130.10     114.90 0.032020
   39.937 132.60     114.90 0.032640
   39.597 135.20     119.80 0.031920
   39.256 137.80     115.00 0.033870
   38.914 140.50     115.10 0.034520
   38.572 143.30     115.30 0.035150
   38.229 146.10     115.30 0.035840
   37.887 149.00     111.60 0.037770
   37.544 152.00     115.90 0.037100
   37.202 155.10     108.30 0.040490
   36.860 158.30     115.90 0.038600
   36.518 161.50     107.20 0.042580
   36.177 164.90     109.50 0.042590
   35.837 168.20     111.40 0.042700
   35.497 171.70     109.90 0.044160
   35.159 175.20     109.90 0.045070
   34.821 178.80     109.70 0.046080
   34.484 182.40     108.90 0.047370
   34.148 186.20     107.60 0.048900
   33.813 189.90     116.10 0.046230
   33.479 193.60     108.10 0.050650
   33.146 197.50     111.60 0.050030
   32.813 201.50     111.00 0.051330
   32.482 205.50     108.80 0.053390
   32.153 209.60     110.80 0.053480
   31.824 213.90     103.20 0.058600
   31.497 218.20     111.90 0.055150
   31.172 222.50     108.40 0.058040
   30.848 226.80     112.00 0.057240
   30.526 231.10     113.80 0.057440
   30.204 235.60     108.60 0.061310
   29.884 240.10     112.80 0.060170
   29.565 244.60     111.40 0.062080
   29.248 249.30     109.40 0.064450
   28.933 254.00     109.90 0.065380
   28.619 258.80     109.80 0.066630
   28.307 263.70     109.20 0.068270
   27.996 268.60     113.20 0.067130
   27.688 273.50     111.30 0.069520
   27.381 278.60     108.90 0.072310
   27.075 283.70     112.10 0.071540
   26.772 288.80     113.40 0.072000
   26.470 293.70     120.00 0.069220
   26.169 298.80     113.60 0.074370
   25.869 303.90     117.20 0.073320
   25.571 309.00     117.90 0.074120
   25.275 314.20     117.30 0.075750
   24.980 319.40     119.10 0.075800
   24.686 324.50     122.00 0.075240
   24.393 329.90     113.80 0.081990
   24.102 335.30     121.30 0.078150
   23.813 340.70     116.40 0.082770
   23.526 346.30     116.40 0.084110
   23.240 351.80     121.80 0.081670
   22.956 357.20     122.20 0.082650
   22.673 362.70     123.10 0.083330
